wavelength,transmission
350.000,0.000000
351.000,0.000000
352.000,0.000000
353.000,0.000000
354.000,0.00416600
355.000,0.000000
356.000,0.00982000
357.000,0.000000
358.000,0.0139880
359.000,0.000000
360.000,0.000000
361.000,0.000000
362.000,0.000794000
363.000,0.000000
364.000,0.000000
365.000,0.00575500
366.000,0.000000
367.000,0.00476200
368.000,0.000000
369.000,0.0166600
370.000,0.000000
371.000,0.0136860
372.000,0.000000
373.000,0.0197410
374.000,0.0248750
375.000,0.0512450
376.000,0.106534
377.000,0.304457
378.000,0.369600
379.000,0.498805
380.000,0.941251
381.000,1.24607
382.000,1.27090
383.000,2.09909
384.000,6.63848
385.000,22.2252
386.000,36.7316
387.000,31.3751
388.000,15.1263
389.000,8.61462
390.000,9.86318
391.000,20.1912
392.000,41.2829
393.000,49.4433
394.000,49.3926
395.000,57.9266
396.000,69.8544
397.000,77.6238
398.000,80.6933
399.000,80.8647
400.000,80.5627
401.000,81.2723
402.000,82.5676
403.000,82.4753
404.000,79.7333
405.000,76.8978
406.000,77.0028
407.000,79.8276
408.000,81.4140
409.000,80.5270
410.000,79.4876
411.000,79.9322
412.000,81.6304
413.000,83.7222
414.000,85.0874
415.000,84.5419
416.000,82.7717
417.000,81.6512
418.000,83.1042
419.000,85.7555
420.000,87.8787
421.000,89.1456
422.000,89.7376
423.000,89.3860
424.000,88.2810
425.000,87.9337
426.000,89.2159
427.000,90.8106
428.000,90.5235
429.000,88.4087
430.000,86.7853
431.000,87.6320
432.000,89.8476
433.000,91.6790
434.000,92.1484
435.000,92.1036
436.000,92.1494
437.000,92.1539
438.000,91.4981
439.000,90.8697
440.000,90.9825
441.000,91.6492
442.000,92.0193
443.000,91.6382
444.000,90.6968
445.000,89.9197
446.000,89.3179
447.000,88.8418
448.000,88.7118
449.000,89.1118
450.000,90.2488
451.000,91.6294
452.000,92.4892
453.000,92.4085
454.000,91.8289
455.000,91.4667
456.000,91.5757
457.000,92.1123
458.000,92.9089
459.000,93.5266
460.000,93.5534
461.000,92.9010
462.000,91.7069
463.000,90.7003
464.000,90.4404
465.000,91.1033
466.000,92.2574
467.000,93.0404
468.000,92.8409
469.000,91.8845
470.000,90.7679
471.000,89.8896
472.000,89.4534
473.000,89.3789
474.000,89.4730
475.000,89.8576
476.000,90.6239
477.000,91.6395
478.000,92.6463
479.000,93.3211
480.000,93.5160
481.000,93.2922
482.000,93.0265
483.000,92.8577
484.000,92.6350
485.000,92.3962
486.000,92.3129
487.000,92.4270
488.000,93.0280
489.000,93.6804
490.000,93.8841
491.000,93.3102
492.000,92.0629
493.000,90.9107
494.000,90.4926
495.000,91.1590
496.000,92.6294
497.000,94.1587
498.000,95.0650
499.000,95.1594
500.000,94.6230
501.000,93.8941
502.000,93.3913
503.000,93.0173
504.000,92.6716
505.000,92.2764
506.000,91.9931
507.000,91.9193
508.000,92.1345
509.000,92.5992
510.000,93.0554
511.000,93.2991
512.000,93.3131
513.000,93.2770
514.000,93.4018
515.000,93.7996
516.000,94.2858
517.000,94.6116
518.000,94.5728
519.000,94.2685
520.000,93.9987
521.000,93.9003
522.000,94.0542
523.000,94.2428
524.000,94.0497
525.000,93.4038
526.000,92.5484
527.000,91.7415
528.000,91.3741
529.000,91.5870
530.000,92.1416
531.000,92.7095
532.000,93.1117
533.000,93.3210
534.000,93.4436
535.000,93.7877
536.000,94.4268
537.000,95.0523
538.000,95.3481
539.000,95.1399
540.000,94.5780
541.000,94.0837
542.000,93.9174
543.000,94.4244
544.000,95.1033
545.000,95.5863
546.000,95.7210
547.000,95.4058
548.000,95.0042
549.000,94.9829
550.000,95.2305
551.000,95.3500
552.000,94.7191
553.000,93.0640
554.000,90.8218
555.000,89.2636
556.000,89.2967
557.000,91.1769
558.000,93.8346
559.000,94.8268
560.000,92.2998
561.000,86.7913
562.000,80.5517
563.000,76.4403
564.000,74.7229
565.000,72.3911
566.000,64.5519
567.000,50.0252
568.000,34.2597
569.000,21.8465
570.000,13.3154
571.000,7.69325
572.000,4.22784
573.000,2.18190
574.000,1.11955
575.000,0.589673
576.000,0.332831
577.000,0.181785
578.000,0.130501
579.000,0.0748250
580.000,0.0552050
581.000,0.0429160
582.000,0.0411260
583.000,0.0235070
584.000,0.0196000
585.000,0.0232290
586.000,0.00999200
587.000,0.0194140
588.000,0.0118010
589.000,0.0226520
590.000,0.00828200
591.000,0.0347320
592.000,0.0159900
593.000,0.0258850
594.000,0.0105590
595.000,0.0314960
596.000,0.0104690
597.000,0.0163630
598.000,0.0217880
599.000,0.0173170
600.000,0.0143710
601.000,0.00856200
602.000,0.0221710
603.000,0.000000
604.000,0.00789800
605.000,0.000000
606.000,0.0170320
607.000,0.000000
608.000,0.0123740
609.000,0.000000
610.000,0.0142740
611.000,0.000000
612.000,0.00837800
613.000,0.000000
614.000,0.00466100
615.000,0.000000
616.000,0.000000
617.000,0.000000
618.000,0.000000
619.000,0.00437800
620.000,0.000000
621.000,0.00618700
622.000,0.000000
623.000,0.0179920
624.000,0.000000
625.000,0.00857000
626.000,0.000000
627.000,0.0137090
628.000,0.000190000
629.000,0.000190000
630.000,0.000000
631.000,0.000952000
632.000,0.0145670
633.000,0.000000
634.000,0.0158100
635.000,0.000000
636.000,0.0153230
637.000,0.00495100
638.000,0.0274170
639.000,0.00295100
640.000,0.0112380
641.000,0.00342700
642.000,0.00504300
643.000,0.000000
644.000,0.00294900
645.000,0.00561500
646.000,0.00961200
647.000,0.000000
648.000,0.00238000
649.000,0.00380300
650.000,0.000000
651.000,0.00999100
652.000,0.000000
653.000,0.00704100
654.000,0.000000
655.000,0.0193220
656.000,0.000000
657.000,0.0119880
658.000,0.000000
659.000,0.00256900
660.000,0.000000
661.000,0.0101820
662.000,0.00856700
663.000,0.000000
664.000,0.00979900
665.000,0.000000
666.000,0.0166500
667.000,0.000000
668.000,0.0218900
669.000,0.00780200
670.000,0.0209280
671.000,0.0102740
672.000,0.0268280
673.000,0.0143640
674.000,0.0100760
675.000,0.00685000
676.000,0.0184500
677.000,0.0157940
678.000,0.00722500
679.000,0.0195910
680.000,0.0210290
681.000,0.0255780
682.000,0.0143600
683.000,0.0284260
684.000,0.0246210
685.000,0.0271970
686.000,0.00741800
687.000,0.0237630
688.000,0.00808000
689.000,0.0141570
690.000,0.00836700
691.000,0.00769800
692.000,0.000000
693.000,0.00769700
694.000,0.00199600
695.000,0.00712600
696.000,0.000000
697.000,0.0114950
698.000,0.00788600
699.000,0.0137820
700.000,0.00218500
701.000,0.0202300
702.000,0.0180500
703.000,0.0198530
704.000,0.0223190
705.000,0.0283070
706.000,0.0311580
707.000,0.0251710
708.000,0.0348590
709.000,0.0245090
710.000,0.0284920
711.000,0.0301090
712.000,0.0441940
713.000,0.0304880
714.000,0.0401570
715.000,0.0367410
716.000,0.0386400
717.000,0.0282060
718.000,0.0379740
719.000,0.0375060
720.000,0.0323780
721.000,0.0234560
722.000,0.0217440
723.000,0.0241990
724.000,0.0160420
725.000,0.0238270
726.000,0.0208880
727.000,0.0166150
728.000,0.0135720
729.000,0.0234420
730.000,0.0150940
731.000,0.0155670
732.000,0.0142440
733.000,0.0213520
734.000,0.0147080
735.000,0.0142370
736.000,0.0190720
737.000,0.0202190
738.000,0.0178520
739.000,0.0246030
740.000,0.0274370
741.000,0.0251530
742.000,0.0290440
743.000,0.0310250
744.000,0.0224990
745.000,0.0321810
746.000,0.0356880
747.000,0.0167040
748.000,0.0169770
749.000,0.00996300
750.000,0.00550600
751.000,0.00968400
752.000,0.0172890
753.000,0.00892800
754.000,0.0214590
755.000,0.0187020
756.000,0.0198430
757.000,0.0168040
758.000,0.0246770
759.000,0.0128230
760.000,0.0136750
761.000,0.0172860
762.000,0.0126300
763.000,0.0133840
764.000,0.0109200
765.000,0.0105450
766.000,0.00664900
767.000,0.0175710
768.000,0.00873900
769.000,0.0172870
770.000,0.0126340
771.000,0.0264980
772.000,0.00845900
773.000,0.0181440
774.000,0.0153000
775.000,0.0187220
776.000,0.0131190
777.000,0.0196730
778.000,0.0170990
779.000,0.0147290
780.000,0.0196660
781.000,0.00504100
782.000,0.0140720
783.000,0.0199760
784.000,0.0260640
785.000,0.00827100
786.000,0.0344320
787.000,0.0127450
788.000,0.0289110
789.000,0.0155990
790.000,0.0244520
791.000,0.0254990
792.000,0.0255000
793.000,0.0170250
794.000,0.0173130
795.000,0.0108450
796.000,0.00380800
797.000,0.0168540
798.000,0.000000
799.000,0.0146600
800.000,0.00761900
801.000,0.0140020
802.000,0.000000
803.000,0.0120020
804.000,0.000000
805.000,0.00857300
806.000,0.00572100
807.000,0.0122060
808.000,0.000000
809.000,0.000000
810.000,0.000000
811.000,0.00505500
812.000,0.000000
813.000,0.0155620
814.000,0.000000
815.000,0.0251910
816.000,0.00152700
817.000,0.0118480
818.000,0.000000
819.000,0.0150130
820.000,0.000000
821.000,0.000000
822.000,0.00938700
823.000,0.00719100
824.000,0.0251500
825.000,0.000000
826.000,0.0269020
827.000,0.00355500
828.000,0.0309710
829.000,0.0129920
830.000,0.0491530
831.000,0.0105950
832.000,0.0274710
833.000,0.00549600
834.000,0.0209480
835.000,0.00425200
836.000,0.00880700
837.000,0.00560900
838.000,0.000000
839.000,0.00747400
840.000,0.000000
841.000,0.0184610
842.000,0.000000
843.000,0.0340170
844.000,0.000000
845.000,0.0348470
846.000,0.000000
847.000,0.0305510
848.000,0.000195000
849.000,0.0454700
850.000,0.0308740
851.000,0.0678000
852.000,0.0846840
853.000,0.0949730
854.000,0.0933700
855.000,0.0838950
856.000,0.0716970
857.000,0.0557120
858.000,0.0431200
859.000,0.0363240
860.000,0.0319500
861.000,0.0271560
862.000,0.0242560
863.000,0.0234600
864.000,0.0250540
865.000,0.0273320
866.000,0.0301250
867.000,0.0365240
868.000,0.0433050
869.000,0.0531830
870.000,0.0656360
871.000,0.0759280
872.000,0.0853180
873.000,0.0884410
874.000,0.0847710
875.000,0.0728980
876.000,0.0574130
877.000,0.0454550
878.000,0.0305940
879.000,0.0262090
880.000,0.0237120
881.000,0.0215270
882.000,0.0186310
883.000,0.0187300
884.000,0.0177320
885.000,0.0157370
886.000,0.0157360
887.000,0.0133510
888.000,0.0146390
889.000,0.0149400
890.000,0.0147400
891.000,0.0148390
892.000,0.0147300
893.000,0.0144350
894.000,0.0153360
895.000,0.0168280
896.000,0.0148350
897.000,0.0148270
898.000,0.0149300
899.000,0.0163210
900.000,0.0161210
901.000,0.0163240
902.000,0.0160270
903.000,0.0186970
904.000,0.0207840
905.000,0.0212880
906.000,0.0238790
907.000,0.0254710
908.000,0.0333320
909.000,0.0350970
910.000,0.0400680
911.000,0.0450700
912.000,0.0477290
913.000,0.0500250
914.000,0.0435590
915.000,0.0398580
916.000,0.0361750
917.000,0.0323950
918.000,0.0295200
919.000,0.0274220
920.000,0.0248450
921.000,0.0226570
922.000,0.0224610
923.000,0.0229530
924.000,0.0211650
925.000,0.0200700
926.000,0.0214540
927.000,0.0206630
928.000,0.0216710
929.000,0.0227700
930.000,0.0219550
931.000,0.0254320
932.000,0.0314900
933.000,0.0235350
934.000,0.0231660
935.000,0.0262480
936.000,0.0266300
937.000,0.0285140
938.000,0.0302000
939.000,0.0295960
940.000,0.0330690
941.000,0.0316880
942.000,0.0323630
943.000,0.0329710
944.000,0.0328720
945.000,0.0302830
946.000,0.0383310
947.000,0.0307860
948.000,0.0305820
949.000,0.0295960
950.000,0.0291990
951.000,0.0288850
952.000,0.0278960
953.000,0.0280080
954.000,0.0281130
955.000,0.0282970
956.000,0.0237340
957.000,0.0270160
958.000,0.0340580
959.000,0.0280940
960.000,0.0289920
961.000,0.0285990
962.000,0.0233290
963.000,0.0296830
964.000,0.0368410
965.000,0.0315820
966.000,0.0328660
967.000,0.0332620
968.000,0.0343690
969.000,0.0360390
970.000,0.0360380
971.000,0.0358520
972.000,0.0308740
973.000,0.0306730
974.000,0.0330740
975.000,0.0328690
976.000,0.0303930
977.000,0.0308740
978.000,0.0291890
979.000,0.0288070
980.000,0.0283050
981.000,0.0276970
982.000,0.0268040
983.000,0.0257210
984.000,0.0224450
985.000,0.0170760
986.000,0.0229310
987.000,0.0218400
988.000,0.0231440
989.000,0.0298880
990.000,0.0256260
991.000,0.0224410
992.000,0.0202520
993.000,0.0232320
994.000,0.0239340
995.000,0.0251310
996.000,0.0288020
997.000,0.0316720
998.000,0.0285950
999.000,0.0302890
1000.00,0.0315740
1001.00,0.0316700
1002.00,0.0319850
1003.00,0.0300140
1004.00,0.0289980
1005.00,0.0330730
1006.00,0.0340650
1007.00,0.0344620
1008.00,0.0368370
1009.00,0.0401130
1010.00,0.0355650
1011.00,0.0360530
1012.00,0.0351520
1013.00,0.0341660
1014.00,0.0338630
1015.00,0.0334540
1016.00,0.0334610
1017.00,0.0331770
1018.00,0.0322760
1019.00,0.0322700
1020.00,0.0294830
1021.00,0.0290870
1022.00,0.0293940
1023.00,0.0289990
1024.00,0.0294900
1025.00,0.0298900
1026.00,0.0295850
1027.00,0.0291860
1028.00,0.0283020
1029.00,0.0302900
1030.00,0.0313840
1031.00,0.0302940
1032.00,0.0291940
1033.00,0.0305740
1034.00,0.0331620
1035.00,0.0342650
1036.00,0.0358540
1037.00,0.0363480
1038.00,0.0360470
1039.00,0.0367450
1040.00,0.0369460
1041.00,0.0368420
1042.00,0.0360520
1043.00,0.0361500
1044.00,0.0357360
1045.00,0.0348400
1046.00,0.0350720
1047.00,0.0341840
1048.00,0.0330700
1049.00,0.0352530
1050.00,0.0356490
1051.00,0.0328740
1052.00,0.0317740
1053.00,0.0308740
1054.00,0.0301990
1055.00,0.0301990
1056.00,0.0304890
1057.00,0.0298940
1058.00,0.0294950
1059.00,0.0288950
1060.00,0.0278900
1061.00,0.0265070
1062.00,0.0259230
1063.00,0.0259190
1064.00,0.0258140
1065.00,0.0268080
1066.00,0.0275070
1067.00,0.0272120
1068.00,0.0269110
1069.00,0.0225390
1070.00,0.0278970
1071.00,0.0296830
1072.00,0.0282980
1073.00,0.0282010
1074.00,0.0282050
1075.00,0.0289990
1076.00,0.0292950
1077.00,0.0290960
1078.00,0.0321670
1079.00,0.0344470
1080.00,0.0364450
1081.00,0.0385230
1082.00,0.0399120
1083.00,0.0416010
1084.00,0.0389070
1085.00,0.0444130
1086.00,0.0496650
1087.00,0.0552050
1088.00,0.0614580
1089.00,0.0685110
1090.00,0.0763600
1091.00,0.0865730
1092.00,0.0974880
1093.00,0.116963
1094.00,0.139374
1095.00,0.167925
1096.00,0.205140
1097.00,0.256633
1098.00,0.330355
1099.00,0.438530
1100.00,0.596942
